Two-way transmissions levels downs to 8 pressures.
Pressures (bar) are :       2.00000      1.40000      1.20000      1.00000
     0.900000     0.800000     0.700000     0.600000
Wavelength (nm), Transmissions (1 - 8)
      476.000     0.999801     0.999877     0.999900     0.999921     0.999931
     0.999940     0.999949     0.999957
      477.000     0.999706     0.999816     0.999849     0.999880     0.999895
     0.999908     0.999922     0.999934
      478.000     0.999551     0.999716     0.999766     0.999813     0.999835
     0.999856     0.999877     0.999897
      479.000     0.999295     0.999547     0.999625     0.999700     0.999734
     0.999768     0.999801     0.999833
      480.000     0.998899     0.999285     0.999407     0.999522     0.999576
     0.999628     0.999680     0.999730
      481.000     0.998514     0.999024     0.999185     0.999340     0.999413
     0.999484     0.999555     0.999624
      482.000     0.998050     0.998707     0.998918     0.999121     0.999218
     0.999312     0.999406     0.999497
      483.000     0.997431     0.998262     0.998533     0.998798     0.998927
     0.999051     0.999177     0.999301
      484.000     0.995882     0.997137     0.997557     0.997974     0.998181
     0.998382     0.998588     0.998794
      485.000     0.993525     0.995445     0.996099     0.996755     0.997083
     0.997404     0.997735     0.998068
      486.000     0.992486     0.994738     0.995497     0.996255     0.996632
     0.997001     0.997380     0.997761
      487.000     0.995636     0.997091     0.997549     0.997994     0.998210
     0.998418     0.998629     0.998838
      488.000     0.997990     0.998707     0.998930     0.999142     0.999242
     0.999337     0.999431     0.999520
      489.000     0.999416     0.999650     0.999717     0.999777     0.999805
     0.999832     0.999857     0.999881
      490.000     0.999815     0.999892     0.999914     0.999934     0.999943
     0.999951     0.999959     0.999966
      491.000     0.999886     0.999934     0.999947     0.999959     0.999965
     0.999970     0.999974     0.999979
      492.000     0.999924     0.999956     0.999965     0.999973     0.999977
     0.999980     0.999983     0.999986
      493.000     0.999949     0.999972     0.999978     0.999983     0.999985
     0.999988     0.999990     0.999991
      494.000     0.999976     0.999987     0.999991     0.999993     0.999994
     0.999995     0.999996     0.999997
      495.000     0.999976     0.999988     0.999991     0.999993     0.999994
     0.999995     0.999996     0.999997
      496.000     0.999950     0.999973     0.999978     0.999984     0.999986
     0.999988     0.999990     0.999992
      497.000     0.999910     0.999949     0.999960     0.999970     0.999974
     0.999978     0.999981     0.999985
      498.000     0.999860     0.999920     0.999937     0.999952     0.999959
     0.999965     0.999970     0.999976
      499.000     0.999777     0.999871     0.999898     0.999921     0.999932
     0.999941     0.999951     0.999960
      500.000     0.999686     0.999817     0.999854     0.999888     0.999903
     0.999917     0.999930     0.999942
      501.000     0.999570     0.999747     0.999797     0.999843     0.999863
     0.999882     0.999900     0.999918
      502.000     0.999412     0.999647     0.999715     0.999777     0.999806
     0.999833     0.999858     0.999882
      503.000     0.999181     0.999500     0.999594     0.999681     0.999721
     0.999758     0.999794     0.999829
      504.000     0.998929     0.999336     0.999458     0.999572     0.999624
     0.999674     0.999722     0.999767
      505.000     0.998638     0.999141     0.999294     0.999438     0.999505
     0.999568     0.999631     0.999691
      506.000     0.998325     0.998928     0.999113     0.999288     0.999371
     0.999450     0.999528     0.999603
      507.000     0.997846     0.998589     0.998824     0.999050     0.999157
     0.999260     0.999363     0.999462
      508.000     0.997237     0.998147     0.998441     0.998727     0.998866
     0.998999     0.999134     0.999266
      509.000     0.996699     0.997760     0.998108     0.998447     0.998613
     0.998774     0.998936     0.999097
      510.000     0.996423     0.997570     0.997945     0.998313     0.998492
     0.998665     0.998841     0.999016
      511.000     0.996897     0.997905     0.998233     0.998553     0.998709
     0.998860     0.999012     0.999163
      512.000     0.998015     0.998687     0.998903     0.999112     0.999212
     0.999308     0.999404     0.999496
      513.000     0.998898     0.999280     0.999401     0.999517     0.999572
     0.999625     0.999678     0.999730
      514.000     0.999449     0.999647     0.999709     0.999766     0.999793
     0.999819     0.999845     0.999870
      515.000     0.999646     0.999776     0.999816     0.999853     0.999870
     0.999887     0.999903     0.999919
      516.000     0.999688     0.999805     0.999840     0.999873     0.999888
     0.999903     0.999917     0.999931
      517.000     0.999650     0.999780     0.999819     0.999856     0.999874
     0.999890     0.999906     0.999922
      518.000     0.999468     0.999666     0.999726     0.999782     0.999809
     0.999833     0.999858     0.999881
      519.000     0.999216     0.999509     0.999597     0.999680     0.999718
     0.999754     0.999790     0.999824
      520.000     0.998860     0.999286     0.999416     0.999537     0.999594
     0.999647     0.999699     0.999748
      521.000     0.998412     0.999009     0.999188     0.999355     0.999433
     0.999507     0.999579     0.999648
      522.000     0.998120     0.998834     0.999048     0.999248     0.999340
     0.999426     0.999511     0.999592
      523.000     0.998037     0.998803     0.999030     0.999238     0.999334
     0.999423     0.999510     0.999592
      524.000     0.998178     0.998915     0.999128     0.999322     0.999410
     0.999491     0.999569     0.999643
      525.000     0.998419     0.999083     0.999271     0.999439     0.999514
     0.999583     0.999650     0.999712
      526.000     0.998590     0.999205     0.999376     0.999527     0.999595
     0.999656     0.999715     0.999767
      527.000     0.998662     0.999256     0.999421     0.999568     0.999632
     0.999691     0.999746     0.999795
      528.000     0.998647     0.999247     0.999414     0.999562     0.999628
     0.999688     0.999744     0.999793
      529.000     0.998579     0.999201     0.999375     0.999531     0.999600
     0.999663     0.999722     0.999775
      530.000     0.998381     0.999074     0.999271     0.999449     0.999528
     0.999602     0.999671     0.999734
      531.000     0.998008     0.998825     0.999066     0.999287     0.999388
     0.999481     0.999571     0.999651
      532.000     0.997432     0.998425     0.998728     0.999014     0.999148
     0.999273     0.999394     0.999504
      533.000     0.996790     0.997969     0.998339     0.998692     0.998861
     0.999020     0.999176     0.999321
      534.000     0.996097     0.997477     0.997918     0.998342     0.998545
     0.998740     0.998931     0.999111
      535.000     0.995062     0.996739     0.997285     0.997817     0.998075
     0.998323     0.998570     0.998804
      536.000     0.993288     0.995482     0.996208     0.996924     0.997275
     0.997614     0.997953     0.998280
      537.000     0.990559     0.993550     0.994548     0.995540     0.996033
     0.996507     0.996984     0.997449
      538.000     0.987197     0.991119     0.992446     0.993771     0.994430
     0.995072     0.995725     0.996370
      539.000     0.983247     0.988308     0.990027     0.991749     0.992607
     0.993444     0.994300     0.995151
      540.000     0.977568     0.984232     0.986504     0.988783     0.989922
     0.991036     0.992179     0.993323
      541.000     0.969193     0.978159     0.981242     0.984348     0.985907
     0.987436     0.989010     0.990594
      542.000     0.959965     0.971446     0.975413     0.979425     0.981446
     0.983433     0.985486     0.987560
      543.000     0.956448     0.968921     0.973232     0.977592     0.979789
     0.981949     0.984181     0.986437
      544.000     0.962131     0.973329     0.977155     0.980995     0.982915
     0.984796     0.986729     0.988674
      545.000     0.974146     0.982271     0.984978     0.987655     0.988973
     0.990246     0.991528     0.992791
      546.000     0.985671     0.990567     0.992126     0.993618     0.994334
     0.995021     0.995708     0.996376
      547.000     0.992971     0.995588     0.996384     0.997132     0.997484
     0.997816     0.998144     0.998455
      548.000     0.995541     0.997425     0.997986     0.998501     0.998735
     0.998951     0.999151     0.999324
      549.000     0.991899     0.995560     0.996715     0.997821     0.998345
     0.998823     0.999241     0.999540
      550.000     0.984601     0.991304     0.993550     0.995781     0.996872
     0.997891     0.998793     0.999420
      551.000     0.981577     0.989249     0.991924     0.994645     0.996009
     0.997308     0.998479     0.999307
      552.000     0.982430     0.989684     0.992221     0.994814     0.996120
     0.997373     0.998511     0.999319
      553.000     0.984192     0.990905     0.993196     0.995503     0.996653
     0.997736     0.998705     0.999388
      554.000     0.987876     0.993145     0.994903     0.996645     0.997500
     0.998290     0.998986     0.999475
      555.000     0.991721     0.995407     0.996589     0.997732     0.998277
     0.998779     0.999221     0.999536
      556.000     0.994515     0.996995     0.997757     0.998471     0.998800
     0.999101     0.999367     0.999564
      557.000     0.996323     0.997958     0.998446     0.998896     0.999100
     0.999287     0.999453     0.999586
      558.000     0.997305     0.998462     0.998803     0.999116     0.999258
     0.999388     0.999508     0.999610
      559.000     0.997842     0.998736     0.999000     0.999241     0.999351
     0.999453     0.999549     0.999634
      560.000     0.998147     0.998891     0.999112     0.999315     0.999408
     0.999496     0.999579     0.999655
      561.000     0.998258     0.998940     0.999145     0.999334     0.999422
     0.999505     0.999584     0.999658
      562.000     0.998225     0.998909     0.999115     0.999308     0.999399
     0.999483     0.999565     0.999641
      563.000     0.998097     0.998820     0.999040     0.999247     0.999344
     0.999435     0.999524     0.999607
      564.000     0.997848     0.998653     0.998901     0.999136     0.999247
     0.999351     0.999452     0.999547
      565.000     0.997426     0.998368     0.998662     0.998942     0.999075
     0.999201     0.999325     0.999441
      566.000     0.996816     0.997956     0.998317     0.998662     0.998828
     0.998985     0.999140     0.999286
      567.000     0.996054     0.997443     0.997888     0.998317     0.998523
     0.998720     0.998914     0.999098
      568.000     0.995175     0.996849     0.997392     0.997921     0.998177
     0.998422     0.998663     0.998889
      569.000     0.994218     0.996214     0.996864     0.997497     0.997805
     0.998100     0.998391     0.998665
      570.000     0.993180     0.995516     0.996277     0.997021     0.997384
     0.997731     0.998074     0.998399
      571.000     0.992131     0.994804     0.995674     0.996523     0.996936
     0.997333     0.997727     0.998102
      572.000     0.991029     0.994019     0.995000     0.995962     0.996432
     0.996884     0.997336     0.997770
      573.000     0.989592     0.992973     0.994091     0.995193     0.995733
     0.996255     0.996779     0.997289
      574.000     0.987667     0.991565     0.992866     0.994157     0.994794
     0.995412     0.996036     0.996650
      575.000     0.985691     0.990132     0.991623     0.993108     0.993845
     0.994560     0.995286     0.996004
      576.000     0.984820     0.989550     0.991134     0.992709     0.993492
     0.994248     0.995016     0.995776
      577.000     0.985612     0.990137     0.991643     0.993137     0.993877
     0.994593     0.995319     0.996036
      578.000     0.987388     0.991398     0.992732     0.994052     0.994703
     0.995333     0.995970     0.996595
      579.000     0.989781     0.993127     0.994230     0.995315     0.995847
     0.996359     0.996873     0.997374
      580.000     0.992406     0.995005     0.995844     0.996661     0.997058
     0.997438     0.997815     0.998177
      581.000     0.994374     0.996388     0.997030     0.997650     0.997947
     0.998230     0.998505     0.998763
      582.000     0.995609     0.997262     0.997779     0.998271     0.998505
     0.998726     0.998939     0.999134
      583.000     0.996126     0.997648     0.998120     0.998568     0.998779
     0.998976     0.999165     0.999330
      584.000     0.995897     0.997579     0.998104     0.998603     0.998838
     0.999058     0.999262     0.999432
      585.000     0.995570     0.997398     0.997981     0.998545     0.998816
     0.999069     0.999302     0.999488
      586.000     0.995540     0.997365     0.997957     0.998535     0.998815
     0.999079     0.999322     0.999515
      587.000     0.995511     0.997355     0.997952     0.998535     0.998817
     0.999083     0.999328     0.999521
      588.000     0.995650     0.997443     0.998018     0.998574     0.998841
     0.999093     0.999324     0.999509
      589.000     0.995920     0.997577     0.998103     0.998609     0.998851
     0.999077     0.999288     0.999460
      590.000     0.995706     0.997411     0.997947     0.998460     0.998703
     0.998932     0.999147     0.999331
      591.000     0.995064     0.996987     0.997587     0.998156     0.998424
     0.998676     0.998916     0.999128
      592.000     0.994215     0.996374     0.997054     0.997703     0.998011
     0.998301     0.998581     0.998837
      593.000     0.992958     0.995486     0.996289     0.997061     0.997432
     0.997783     0.998128     0.998451
      594.000     0.991120     0.994219     0.995210     0.996167     0.996631
     0.997071     0.997505     0.997920
      595.000     0.989167     0.992824     0.994009     0.995163     0.995722
     0.996259     0.996795     0.997314
      596.000     0.987934     0.991955     0.993262     0.994538     0.995159
     0.995755     0.996352     0.996934
      597.000     0.987682     0.991814     0.993153     0.994457     0.995091
     0.995698     0.996306     0.996898
      598.000     0.987901     0.992021     0.993347     0.994632     0.995254
     0.995849     0.996442     0.997018
      599.000     0.988542     0.992525     0.993794     0.995017     0.995605
     0.996166     0.996723     0.997260
      600.000     0.989520     0.993267     0.994446     0.995574     0.996112
     0.996623     0.997128     0.997609
      601.000     0.990363     0.993973     0.995089     0.996147     0.996645
     0.997114     0.997568     0.997991
      602.000     0.988749     0.993356     0.994773     0.996106     0.996728
     0.997305     0.997842     0.998298
      603.000     0.983774     0.990610     0.992799     0.994916     0.995931
     0.996875     0.997731     0.998391
      604.000     0.981420     0.989010     0.991536     0.994053     0.995298
     0.996471     0.997545     0.998363
      605.000     0.982556     0.989447     0.991783     0.994135     0.995311
     0.996433     0.997472     0.998278
      606.000     0.981871     0.989011     0.991411     0.993810     0.995004
     0.996134     0.997181     0.998004
      607.000     0.981427     0.988608     0.991000     0.993373     0.994539
     0.995645     0.996678     0.997513
      608.000     0.981935     0.988626     0.990839     0.993020     0.994087
     0.995099     0.996060     0.996885
      609.000     0.981738     0.988268     0.990406     0.992498     0.993515
     0.994482     0.995417     0.996261
      610.000     0.980585     0.987289     0.989473     0.991602     0.992635
     0.993618     0.994582     0.995486
      611.000     0.976383     0.984206     0.986768     0.989275     0.990498
     0.991673     0.992849     0.993993
      612.000     0.966126     0.976809     0.980363     0.983878     0.985610
     0.987288     0.988989     0.990672
      613.000     0.948002     0.963735     0.969065     0.974391     0.977043
     0.979629     0.982275     0.984920
      614.000     0.925997     0.947927     0.955437     0.962985     0.966765
     0.970460     0.974255     0.978069
      615.000     0.906129     0.933715     0.943183     0.952711     0.957487
     0.962160     0.966962     0.971790
      616.000     0.889076     0.921870     0.933090     0.944365     0.950023
     0.955529     0.961172     0.966841
      617.000     0.867774     0.906259     0.919542     0.932935     0.939655
     0.946244     0.953026     0.959851
      618.000     0.842619     0.887179     0.902746     0.918554     0.926542
     0.934398     0.942519     0.950731
      619.000     0.825753     0.874109     0.891162     0.908578     0.917430
     0.926156     0.935205     0.944390
      620.000     0.830793     0.877850     0.894426     0.911345     0.919940
     0.928410     0.937192     0.946102
      621.000     0.850360     0.892493     0.907249     0.922260     0.929860
     0.937342     0.945086     0.952926
      622.000     0.878147     0.913373     0.925550     0.937869     0.944101
     0.950171     0.956409     0.962702
      623.000     0.908198     0.935535     0.944877     0.954250     0.958934
     0.963511     0.968204     0.972906
      624.000     0.935058     0.955314     0.962083     0.968795     0.972112
     0.975330     0.978599     0.981836
      625.000     0.956085     0.970563     0.975315     0.979971     0.982243
     0.984422     0.986597     0.988705
      626.000     0.971542     0.981268     0.984405     0.987451     0.988928
     0.990343     0.991755     0.993116
      627.000     0.981515     0.988003     0.990086     0.992106     0.993082
     0.994014     0.994934     0.995804
      628.000     0.987443     0.991984     0.993445     0.994860     0.995542
     0.996183     0.996805     0.997380
      629.000     0.991287     0.994479     0.995504     0.996497     0.996975
     0.997428     0.997866     0.998266
      630.000     0.993384     0.995833     0.996622     0.997389     0.997762
     0.998113     0.998449     0.998749
      631.000     0.994288     0.996417     0.997114     0.997797     0.998130
     0.998444     0.998744     0.999004
      632.000     0.994544     0.996590     0.997266     0.997932     0.998257
     0.998566     0.998858     0.999107
      633.000     0.994468     0.996566     0.997262     0.997948     0.998285
     0.998604     0.998904     0.999156
      634.000     0.994042     0.996323     0.997081     0.997831     0.998199
     0.998547     0.998874     0.999144
      635.000     0.993275     0.995881     0.996749     0.997607     0.998027
     0.998425     0.998796     0.999098
      636.000     0.991964     0.995099     0.996148     0.997190     0.997700
     0.998185     0.998634     0.998994
      637.000     0.990745     0.994332     0.995542     0.996750     0.997346
     0.997912     0.998439     0.998859
      638.000     0.990151     0.993921     0.995195     0.996471     0.997104
     0.997705     0.998267     0.998719
      639.000     0.989332     0.993379     0.994745     0.996112     0.996788
     0.997433     0.998038     0.998532
      640.000     0.987955     0.992538     0.994073     0.995598     0.996349
     0.997064     0.997736     0.998289
      641.000     0.986148     0.991477     0.993224     0.994940     0.995777
     0.996569     0.997313     0.997930
      642.000     0.981138     0.988919     0.991374     0.993722     0.994835
     0.995870     0.996816     0.997576
      643.000     0.961064     0.978236     0.983724     0.988982     0.991479
     0.993727     0.995689     0.997119
      644.000     0.921612     0.954739     0.966057     0.977357     0.982897
     0.988087     0.992719     0.996007
      645.000     0.897041     0.938045     0.952813     0.968086     0.975884
     0.983339     0.990113     0.994963
      646.000     0.906987     0.942249     0.955330     0.969198     0.976500
     0.983544     0.990072     0.994872
      647.000     0.908331     0.943541     0.956420     0.969999     0.977117
     0.983956     0.990267     0.994899
      648.000     0.899797     0.939254     0.953432     0.968159     0.975734
     0.983025     0.989713     0.994577
      649.000     0.913428     0.948173     0.960394     0.972944     0.979347
     0.985341     0.990776     0.994758
      650.000     0.933388     0.960465     0.969761     0.979130     0.983785
     0.988179     0.992163     0.995101
      651.000     0.945282     0.967874     0.975450     0.982939     0.986597
     0.990003     0.993063     0.995343
      652.000     0.958349     0.975616     0.981244     0.986711     0.989344
     0.991764     0.993941     0.995620
      653.000     0.966919     0.980376     0.984669     0.988788     0.990749
     0.992558     0.994214     0.995558
      654.000     0.970825     0.982001     0.985593     0.989065     0.990737
     0.992299     0.993769     0.995033
      655.000     0.970979     0.981337     0.984735     0.988071     0.989699
     0.991250     0.992750     0.994100
      656.000     0.969418     0.979810     0.983267     0.986697     0.988391
     0.990018     0.991617     0.993096
      657.000     0.967490     0.978323     0.981951     0.985561     0.987351
     0.989073     0.990777     0.992373
      658.000     0.966546     0.977642     0.981343     0.985023     0.986850
     0.988604     0.990344     0.991989
      659.000     0.965724     0.976966     0.980728     0.984470     0.986330
     0.988112     0.989884     0.991576
      660.000     0.965018     0.976310     0.980098     0.983870     0.985749
     0.987553     0.989356     0.991095
      661.000     0.963822     0.975329     0.979205     0.983067     0.984987
     0.986842     0.988708     0.990526
      662.000     0.961517     0.973522     0.977580     0.981632     0.983652
     0.985607     0.987586     0.989533
      663.000     0.959609     0.971941     0.976135     0.980340     0.982445
     0.984488     0.986566     0.988634
      664.000     0.958918     0.971274     0.975492     0.979730     0.981859
     0.983927     0.986041     0.988158
      665.000     0.957105     0.969819     0.974178     0.978572     0.980785
     0.982940     0.985149     0.987374
      666.000     0.953978     0.967365     0.971990     0.976674     0.979047
     0.981364     0.983751     0.986167
      667.000     0.952718     0.966315     0.971036     0.975832     0.978269
     0.980653     0.983114     0.985612
      668.000     0.954728     0.967746     0.972266     0.976856     0.979189
     0.981471     0.983828     0.986220
      669.000     0.959216     0.971043     0.975139     0.979293     0.981399
     0.983458     0.985580     0.987733
      670.000     0.965491     0.975590     0.979070     0.982596     0.984394
     0.986131     0.987913     0.989718
      671.000     0.972438     0.980596     0.983396     0.986225     0.987654
     0.989046     0.990475     0.991916
      672.000     0.978376     0.985006     0.987239     0.989477     0.990608
     0.991695     0.992806     0.993928
      673.000     0.984353     0.989215     0.990857     0.992499     0.993320
     0.994115     0.994922     0.995728
      674.000     0.988860     0.992339     0.993510     0.994683     0.995276
     0.995842     0.996412     0.996978
      675.000     0.991690     0.994332     0.995223     0.996114     0.996560
     0.996990     0.997422     0.997846
      676.000     0.993484     0.995624     0.996339     0.997052     0.997410
     0.997749     0.998086     0.998408
      677.000     0.994535     0.996349     0.996964     0.997581     0.997890
     0.998186     0.998477     0.998749
      678.000     0.994704     0.996475     0.997084     0.997698     0.998008
     0.998306     0.998597     0.998861
      679.000     0.993842     0.995897     0.996610     0.997338     0.997707
     0.998062     0.998408     0.998718
      680.000     0.991820     0.994497     0.995435     0.996398     0.996892
     0.997365     0.997824     0.998236
      681.000     0.988865     0.992477     0.993739     0.995030     0.995693
     0.996335     0.996965     0.997536
      682.000     0.984804     0.989715     0.991433     0.993195     0.994098
     0.994962     0.995806     0.996573
      683.000     0.980232     0.986683     0.988936     0.991235     0.992401
     0.993526     0.994629     0.995630
      684.000     0.978353     0.985585     0.988094     0.990644     0.991935
     0.993175     0.994383     0.995466
      685.000     0.979719     0.986629     0.989032     0.991478     0.992716
     0.993908     0.995062     0.996078
      686.000     0.981493     0.987828     0.990024     0.992262     0.993401
     0.994498     0.995560     0.996488
      687.000     0.983039     0.988926     0.990958     0.993022     0.994067
     0.995065     0.996023     0.996854
      688.000     0.984461     0.989930     0.991816     0.993723     0.994684
     0.995599     0.996475     0.997227
      689.000     0.985703     0.990849     0.992609     0.994378     0.995261
     0.996104     0.996906     0.997589
      690.000     0.986697     0.991584     0.993239     0.994892     0.995713
     0.996491     0.997227     0.997848
      691.000     0.987163     0.991922     0.993528     0.995130     0.995923
     0.996674     0.997383     0.997979
      692.000     0.986604     0.991575     0.993257     0.994940     0.995773
     0.996564     0.997310     0.997934
      693.000     0.985206     0.990673     0.992525     0.994378     0.995299
     0.996175     0.997004     0.997699
      694.000     0.982766     0.989062     0.991204     0.993353     0.994426
     0.995441     0.996402     0.997213
      695.000     0.978807     0.986397     0.988976     0.991570     0.992872
     0.994119     0.995312     0.996338
      696.000     0.973125     0.982427     0.985612     0.988820     0.990428
     0.991970     0.993462     0.994782
      697.000     0.965638     0.977222     0.981167     0.985140     0.987142
     0.989069     0.990954     0.992666
      698.000     0.955693     0.970417     0.975463     0.980545     0.983090
     0.985540     0.987944     0.990141
      699.000     0.942042     0.961062     0.967613     0.974231     0.977552
     0.980755     0.983912     0.986829
      700.000     0.925936     0.949479     0.957616     0.965849     0.969994
     0.974008     0.978003     0.981758
      701.000     0.910014     0.938048     0.947804     0.957715     0.962726
     0.967592     0.972461     0.977085
      702.000     0.901156     0.931442     0.942082     0.952954     0.958487
     0.963868     0.969262     0.974387
      703.000     0.901924     0.931685     0.942208     0.953001     0.958511
     0.963880     0.969266     0.974382
      704.000     0.906539     0.934992     0.945060     0.955396     0.960672
     0.965820     0.970981     0.975866
      705.000     0.914883     0.941241     0.950544     0.960077     0.964953
     0.969664     0.974351     0.978743
      706.000     0.925637     0.949322     0.957623     0.966096     0.970401
     0.974566     0.978678     0.982463
      707.000     0.934387     0.955913     0.963464     0.971181     0.975093
     0.978872     0.982569     0.985898
      708.000     0.942513     0.961634     0.968337     0.975179     0.978657
     0.981990     0.985223     0.988091
      709.000     0.950619     0.967231     0.973009     0.978882     0.981849
     0.984699     0.987463     0.989910
      710.000     0.957216     0.971801     0.976842     0.981950     0.984524
     0.986991     0.989378     0.991490
      711.000     0.962152     0.975214     0.979712     0.984261     0.986545
     0.988734     0.990848     0.992707
      712.000     0.964862     0.977081     0.981240     0.985421     0.987520
     0.989528     0.991464     0.993175
      713.000     0.966382     0.978026     0.981968     0.985909     0.987867
     0.989737     0.991548     0.993176
      714.000     0.965387     0.977301     0.981281     0.985230     0.987183
     0.989044     0.990862     0.992539
      715.000     0.954937     0.969889     0.974871     0.979806     0.982245
     0.984583     0.986904     0.989113
      716.000     0.927170     0.950330     0.958140     0.965924     0.969792
     0.973530     0.977297     0.980987
      717.000     0.879752     0.915923     0.928358     0.940881     0.947167
     0.953288     0.959534     0.965761
      718.000     0.822494     0.873762     0.891705     0.909947     0.919186
     0.928230     0.937530     0.946893
      719.000     0.762388     0.828502     0.852080     0.876256     0.888645
     0.900708     0.913132     0.925702
      720.000     0.704255     0.784759     0.813725     0.843576     0.858870
     0.873957     0.889619     0.905526
      721.000     0.658400     0.749406     0.782480     0.816732     0.834361
     0.851771     0.869879     0.888317
      722.000     0.618034     0.719306     0.756281     0.794665     0.814502
     0.834014     0.854277     0.874915
      723.000     0.564496     0.677220     0.719065     0.762757     0.785351
     0.807755     0.831117     0.854947
      724.000     0.489311     0.612724     0.660033     0.710289     0.736689
     0.763081     0.790859     0.819424
      725.000     0.406645     0.535772     0.587568     0.644023     0.674412
     0.705152     0.737934     0.772080
      726.000     0.331669     0.461729     0.516515     0.577897     0.611775
     0.646531     0.684112     0.723760
      727.000     0.298297     0.427728     0.483545     0.546946     0.582402
     0.618985     0.658766     0.700853
      728.000     0.313403     0.444169     0.500103     0.563338     0.598532
     0.634754     0.673939     0.715089
      729.000     0.373927     0.505010     0.559042     0.618926     0.651682
     0.685022     0.720646     0.757514
      730.000     0.439646     0.567727     0.618721     0.674151     0.703916
     0.733934     0.765615     0.797901
      731.000     0.507832     0.629756     0.676836     0.727170     0.753776
     0.780366     0.808082     0.835868
      732.000     0.575561     0.688239     0.730355     0.774638     0.797789
     0.820582     0.844038     0.867299
      733.000     0.630329     0.732432     0.769842     0.808720     0.828756
     0.848486     0.868711     0.888655
      734.000     0.689181     0.779269     0.811577     0.844758     0.861665
     0.878214     0.895039     0.911487
      735.000     0.753594     0.827909     0.853975     0.880466     0.893840
     0.906853     0.919995     0.932743
      736.000     0.805019     0.865012     0.885783     0.906731     0.917243
     0.927424     0.937675     0.947612
      737.000     0.846721     0.895086     0.911571     0.928096     0.936386
     0.944326     0.952271     0.959959
      738.000     0.885597     0.922313     0.934745     0.947147     0.953310
     0.959247     0.965185     0.970916
      739.000     0.920220     0.946350     0.955090     0.963756     0.968042
     0.972155     0.976255     0.980188
      740.000     0.945626     0.964019     0.970063     0.976024     0.978984
     0.981772     0.984519     0.987138
      741.000     0.963565     0.976134     0.980262     0.984319     0.986307
     0.988202     0.990068     0.991827
      742.000     0.975874     0.984392     0.987180     0.989915     0.991254
     0.992526     0.993768     0.994921
      743.000     0.983681     0.989595     0.991514     0.993396     0.994327
     0.995192     0.996024     0.996786
      744.000     0.987957     0.992317     0.993745     0.995147     0.995836
     0.996485     0.997110     0.997674
      745.000     0.989837     0.993575     0.994789     0.995982     0.996572
     0.997124     0.997653     0.998128
      746.000     0.990472     0.993966     0.995113     0.996246     0.996808
     0.997333     0.997832     0.998276
      747.000     0.990583     0.994021     0.995157     0.996283     0.996845
     0.997369     0.997870     0.998313
      748.000     0.990534     0.994007     0.995163     0.996313     0.996888
     0.997426     0.997937     0.998383
      749.000     0.990283     0.993866     0.995062     0.996256     0.996852
     0.997412     0.997942     0.998400
      750.000     0.990148     0.993782     0.995000     0.996217     0.996825
     0.997397     0.997939     0.998404
      751.000     0.990476     0.993999     0.995181     0.996361     0.996952
     0.997508     0.998035     0.998485
      752.000     0.990236     0.993886     0.995109     0.996330     0.996940
     0.997512     0.998052     0.998508
      753.000     0.989525     0.993540     0.994876     0.996206     0.996866
     0.997483     0.998058     0.998534
      754.000     0.988988     0.993338     0.994769     0.996179     0.996868
     0.997514     0.998113     0.998598
      755.000     0.986866     0.992162     0.993900     0.995602     0.996431
     0.997199     0.997902     0.998462
      756.000     0.982402     0.989610     0.991971     0.994284     0.995410
     0.996453     0.997401     0.998142
      757.000     0.975935     0.985702     0.988937     0.992133     0.993698
     0.995159     0.996492     0.997527
      758.000     0.968088     0.980944     0.985256     0.989549     0.991664
     0.993654     0.995474     0.996878
      759.000     0.960750     0.976574     0.981885     0.987175     0.989794
     0.992239     0.994469     0.996187
      760.000     0.949120     0.969366     0.976215     0.983058     0.986442
     0.989634     0.992564     0.994831
      761.000     0.932015     0.958471     0.967625     0.976880     0.981499
     0.985891     0.989946     0.993084
      762.000     0.919808     0.950345     0.961002     0.971862     0.977345
     0.982574     0.987433     0.991238
      763.000     0.920216     0.950053     0.960487     0.971123     0.976490
     0.981635     0.986447     0.990272
      764.000     0.919709     0.949174     0.959514     0.970082     0.975434
     0.980551     0.985356     0.989244
      765.000     0.910901     0.943468     0.954930     0.966668     0.972637
     0.978317     0.983646     0.987958
      766.000     0.904408     0.939432     0.951735     0.964314     0.970688
     0.976762     0.982463     0.987072
      767.000     0.905854     0.940355     0.952396     0.964670     0.970882
     0.976792     0.982341     0.986858
      768.000     0.910628     0.943469     0.954840     0.966377     0.972194
     0.977730     0.982941     0.987210
      769.000     0.917342     0.947760     0.958200     0.968736     0.974024
     0.979043     0.983771     0.987682
      770.000     0.921816     0.950468     0.960204     0.969972     0.974851
     0.979474     0.983857     0.987566
      771.000     0.918871     0.948693     0.958838     0.968992     0.974015
     0.978802     0.983336     0.987155
      772.000     0.912609     0.944304     0.955091     0.965887     0.971240
     0.976334     0.981177     0.985318
      773.000     0.909441     0.941081     0.951840     0.962613     0.967975
     0.973078     0.977998     0.982373
      774.000     0.905557     0.937616     0.948510     0.959439     0.964919
     0.970132     0.975207     0.979821
      775.000     0.904081     0.936388     0.947388     0.958441     0.963996
     0.969289     0.974457     0.979180
      776.000     0.899470     0.932770     0.944131     0.955568     0.961334
     0.966849     0.972285     0.977339
      777.000     0.889162     0.925531     0.938031     0.950638     0.956969
     0.963065     0.969081     0.974670
      778.000     0.870826     0.913469     0.928176     0.943024     0.950483
     0.957649     0.964691     0.971178
      779.000     0.842590     0.894033     0.911932     0.930073     0.939210
     0.948011     0.956657     0.964557
      780.000     0.811483     0.871590     0.892669     0.914178     0.925131
     0.935655     0.946027     0.955598
      781.000     0.782625     0.849587     0.873427     0.897914     0.910415
     0.922547     0.934618     0.945922
      782.000     0.749197     0.826494     0.854242     0.882842     0.897464
     0.911671     0.925750     0.938768
      783.000     0.697510     0.793115     0.827747     0.863564     0.881907
     0.899641     0.916994     0.932552
      784.000     0.635899     0.753275     0.796618     0.841819     0.865068
     0.887485     0.909100     0.927752
      785.000     0.581213     0.718578     0.770897     0.826362     0.855265
     0.883238     0.909918     0.931885
      786.000     0.525301     0.677015     0.737418     0.803225     0.838432
     0.872817     0.905686     0.932122
      787.000     0.493564     0.648752     0.712774     0.784318     0.823751
     0.862616     0.900151     0.930311
      788.000     0.491147     0.641740     0.705279     0.777832     0.818836
     0.859660     0.899472     0.931519
      789.000     0.518669     0.661293     0.720888     0.789010     0.827792
     0.866491     0.904520     0.935437
      790.000     0.541093     0.679836     0.736902     0.801456     0.837815
     0.873831     0.909019     0.937626
      791.000     0.505395     0.653117     0.714759     0.784877     0.824417
     0.863755     0.902198     0.933320
      792.000     0.477768     0.631669     0.696213     0.769663     0.811045
     0.852191     0.892497     0.925369
      793.000     0.518913     0.665063     0.723842     0.788906     0.824623
     0.859634     0.893666     0.921853
      794.000     0.563697     0.697610     0.749879     0.806771     0.837579
     0.867403     0.896346     0.920876
      795.000     0.580590     0.707021     0.756068     0.809311     0.838101
     0.866065     0.893412     0.917097
      796.000     0.592036     0.715378     0.762682     0.813335     0.840211
     0.866435     0.892118     0.914602
      797.000     0.607387     0.726819     0.771810     0.819225     0.843913
     0.867866     0.891328     0.912250
      798.000     0.634722     0.746454     0.787376     0.829779     0.851542
     0.872523     0.893155     0.912069
      799.000     0.670313     0.772223     0.808648     0.845806     0.864568
     0.882677     0.900617     0.917449
      800.000     0.704360     0.796061     0.828223     0.860833     0.877301
     0.893124     0.908894     0.923958
      801.000     0.732998     0.815348     0.844075     0.873176     0.887887
     0.902008     0.916110     0.929658
      802.000     0.757222     0.831836     0.857831     0.884162     0.897453
     0.910287     0.923166     0.935594
      803.000     0.776612     0.845270     0.869146     0.893327     0.905537
     0.917340     0.929207     0.940681
      804.000     0.795554     0.858523     0.880391     0.902542     0.913729
     0.924549     0.935433     0.945986
      805.000     0.816049     0.873286     0.893094     0.913131     0.923236
     0.933008     0.942831     0.952340
      806.000     0.836100     0.887860     0.905598     0.923493     0.932552
     0.941210     0.949853     0.958164
      807.000     0.853545     0.900518     0.916549     0.932680     0.940817
     0.948594     0.956328     0.963706
      808.000     0.868374     0.911426     0.926144     0.940926     0.948329
     0.955422     0.962446     0.969083
      809.000     0.873031     0.914871     0.929223     0.943674     0.950929
     0.957884     0.964742     0.971143
      810.000     0.876276     0.917342     0.931482     0.945752     0.952928
     0.959818     0.966590     0.972830
      811.000     0.889622     0.926935     0.939678     0.952521     0.959010
     0.965171     0.971170     0.976628
      812.000     0.906640     0.938882     0.949841     0.960808     0.966286
     0.971536     0.976649     0.981264
      813.000     0.920944     0.948654     0.958080     0.967546     0.972282
     0.976809     0.981190     0.985081
      814.000     0.932925     0.956972     0.965139     0.973352     0.977482
     0.981392     0.985131     0.988387
      815.000     0.943069     0.963702     0.970726     0.977778     0.981300
     0.984651     0.987847     0.990590
      816.000     0.952486     0.970245     0.976219     0.982195     0.985188
     0.987993     0.990632     0.992858
      817.000     0.960313     0.975324     0.980382     0.985425     0.987923
     0.990285     0.992503     0.994345
      818.000     0.967757     0.980276     0.984439     0.988565     0.990606
     0.992513     0.994282     0.995731
      819.000     0.973468     0.983918     0.987364     0.990760     0.992433
     0.993988     0.995427     0.996603
      820.000     0.978205     0.986867     0.989702     0.992482     0.993838
     0.995103     0.996274     0.997230
      821.000     0.982209     0.989359     0.991669     0.993927     0.995034
     0.996051     0.996985     0.997751
      822.000     0.985149     0.991118     0.993038     0.994907     0.995818
     0.996658     0.997432     0.998071
      823.000     0.987669     0.992653     0.994248     0.995795     0.996549
     0.997241     0.997879     0.998407
      824.000     0.989389     0.993666     0.995028     0.996345     0.996984
     0.997573     0.998117     0.998572
      825.000     0.990780     0.994510     0.995694     0.996837     0.997388
     0.997896     0.998367     0.998763
      826.000     0.991472     0.994931     0.996019     0.997063     0.997564
     0.998024     0.998451     0.998815
      827.000     0.992047     0.995290     0.996292     0.997247     0.997704
     0.998122     0.998511     0.998849
      828.000     0.992569     0.995593     0.996523     0.997409     0.997836
     0.998222     0.998581     0.998892
      829.000     0.993143     0.995916     0.996776     0.997596     0.997993
     0.998353     0.998686     0.998977
      830.000     0.993410     0.996066     0.996895     0.997689     0.998076
     0.998427     0.998753     0.999034
      831.000     0.993311     0.995986     0.996824     0.997632     0.998026
     0.998387     0.998724     0.999016
      832.000     0.991982     0.995186     0.996172     0.997117     0.997574
     0.997995     0.998389     0.998737
      833.000     0.987163     0.992127     0.993655     0.995116     0.995829
     0.996480     0.997099     0.997670
      834.000     0.974962     0.984333     0.987237     0.990026     0.991394
     0.992644     0.993848     0.994987
      835.000     0.949395     0.967154     0.972864     0.978423     0.981139
     0.983693     0.986195     0.988586
      836.000     0.917571     0.944799     0.953763     0.962601     0.966968
     0.971135     0.975315     0.979433
      837.000     0.887373     0.922934     0.934952     0.946958     0.952966
     0.958731     0.964551     0.970329
      838.000     0.857347     0.899845     0.914512     0.929403     0.937034
     0.944326     0.951735     0.959190
      839.000     0.835894     0.882150     0.898480     0.915300     0.924057
     0.932624     0.941474     0.950469
      840.000     0.832495     0.879267     0.895841     0.912959     0.921899
     0.930658     0.939722     0.948956
      841.000     0.815856     0.866802     0.885088     0.904046     0.913872
     0.923481     0.933428     0.943584
      842.000     0.813464     0.865404     0.883825     0.902862     0.912818
     0.922436     0.932411     0.942697
      843.000     0.847091     0.891140     0.906621     0.922500     0.930734
     0.938618     0.946666     0.954814
      844.000     0.862531     0.902192     0.916207     0.930583     0.938019
     0.945146     0.952415     0.959758
      845.000     0.877687     0.913862     0.926479     0.939340     0.945914
     0.952279     0.958781     0.965314
      846.000     0.898119     0.929413     0.940176     0.951069     0.956590
     0.961901     0.967283     0.972630
      847.000     0.911078     0.939371     0.948899     0.958452     0.963302
     0.967882     0.972467     0.976979
      848.000     0.914591     0.942007     0.951229     0.960466     0.965150
     0.969567     0.973975     0.978305
      849.000     0.919289     0.945888     0.954771     0.963622     0.968078
     0.972276     0.976439     0.980479
      850.000     0.913241     0.942239     0.951905     0.961522     0.966351
     0.970891     0.975370     0.979672
      851.000     0.894693     0.929714     0.941408     0.953050     0.958902
     0.964406     0.969836     0.975025
      852.000     0.866468     0.910132     0.924919     0.939690     0.947063
     0.954116     0.961135     0.967872
      853.000     0.830733     0.884823     0.903199     0.921641     0.930957
     0.939802     0.948619     0.957153
      854.000     0.781662     0.848798     0.872104     0.895706     0.907650
     0.919175     0.930806     0.942214
      855.000     0.728318     0.809392     0.837900     0.867002     0.881900
     0.896207     0.910658     0.924860
      856.000     0.667114     0.763603     0.798313     0.834049     0.852352
     0.870189     0.888346     0.906261
      857.000     0.594579     0.706964     0.748300     0.791322     0.813569
     0.835356     0.857667     0.879777
      858.000     0.514728     0.643716     0.692152     0.743173     0.770062
     0.796228     0.823110     0.850031
      859.000     0.450592     0.589804     0.643848     0.701612     0.732186
     0.762411     0.793749     0.825319
      860.000     0.388790     0.533874     0.591803     0.654657     0.688408
     0.721990     0.757113     0.792887
      861.000     0.313651     0.458582     0.519106     0.586556     0.623878
     0.661174     0.700745     0.741836
      862.000     0.266241     0.405262     0.466039     0.535412     0.574433
     0.614338     0.657486     0.703108
      863.000     0.259345     0.395421     0.455526     0.524650     0.563854
     0.604060     0.647701     0.694036
      864.000     0.259135     0.394805     0.454922     0.524239     0.563664
     0.604120     0.648032     0.694605
      865.000     0.275553     0.413687     0.474129     0.543320     0.582342
     0.622213     0.665218     0.710449
      866.000     0.304591     0.445388     0.505295     0.572962     0.610947
     0.649088     0.689732     0.732023
      867.000     0.347153     0.488776     0.547835     0.613682     0.649999
     0.686495     0.725050     0.764564
      868.000     0.400176     0.542789     0.600622     0.664131     0.698662
     0.733082     0.768919     0.804828
      869.000     0.451771     0.592861     0.648183     0.708079     0.740498
     0.772127     0.804464     0.836161
      870.000     0.491440     0.629999     0.683310     0.740408     0.770970
     0.800623     0.830642     0.859690
      871.000     0.529717     0.662760     0.713274     0.766836     0.795042
     0.822542     0.850252     0.876689
      872.000     0.567806     0.696204     0.744019     0.794199     0.820380
     0.845774     0.871120     0.894915
      873.000     0.586359     0.712142     0.758652     0.807227     0.832402
     0.856761     0.880932     0.903371
      874.000     0.586942     0.714286     0.761190     0.810042     0.835285
     0.859696     0.883840     0.906087
      875.000     0.575667     0.706815     0.755224     0.805639     0.831624
     0.856799     0.881674     0.904485
      876.000     0.559159     0.695437     0.745742     0.798050     0.824963
     0.850991     0.876675     0.900237
      877.000     0.519532     0.666622     0.721457     0.778741     0.808306
     0.836887     0.865069     0.890869
      878.000     0.435485     0.599864     0.663660     0.731549     0.767231
     0.801747     0.835821     0.866872
      879.000     0.305346     0.483611     0.558774     0.641645     0.686204
     0.730373     0.774987     0.816548
      880.000     0.156891     0.317214     0.394555     0.485558     0.537753
     0.591301     0.647841     0.703380
      881.000    0.0490492     0.141112     0.196733     0.272129     0.321193
     0.375016     0.436764     0.503748
      882.000   0.00910521    0.0396509    0.0646591     0.105349     0.136591
     0.174313     0.222702     0.282303
      883.000   0.00158507    0.0115890    0.0224137    0.0432321    0.0617744
    0.0860854     0.120270     0.166783
      884.000   0.00156196    0.0111379    0.0214773    0.0414421    0.0593548
    0.0828905     0.116141     0.161698
      885.000   0.00348019    0.0203341    0.0365104    0.0654021    0.0895342
     0.119952     0.160938     0.214412
      886.000   0.00204640    0.0132679    0.0248336    0.0465560    0.0655815
    0.0903149     0.124826     0.171454
      887.000  0.000485636   0.00398355   0.00828701    0.0175623    0.0268475
    0.0399741    0.0600905    0.0901724
      888.000  0.000126032   0.00187430   0.00460681    0.0112959    0.0186358
    0.0295984    0.0472010    0.0746837
      889.000  0.000430670   0.00482481    0.0106207    0.0232371    0.0357796
    0.0530243    0.0786560     0.115620
      890.000  0.000997398   0.00857635    0.0173987    0.0350545    0.0512695
    0.0729155     0.103876     0.146716
      891.000   0.00127924    0.0100208    0.0197578    0.0387477    0.0558242
    0.0783609     0.110262     0.154029
      892.000   0.00163732    0.0118145    0.0226870    0.0433598    0.0615543
    0.0852906     0.118528     0.163721
      893.000   0.00138724    0.0102912    0.0199849    0.0386689    0.0553274
    0.0772579     0.108302     0.151051
      894.000  0.000872519   0.00721489    0.0145782    0.0294196    0.0432166
    0.0618341    0.0889184     0.127317
      895.000  0.000807780   0.00676070    0.0137358    0.0278944    0.0411471
    0.0591091    0.0853748     0.122841
      896.000   0.00197129    0.0126391    0.0235600    0.0439206    0.0615959
    0.0845926     0.116775     0.160668
      897.000   0.00681695    0.0319238    0.0532500    0.0884949     0.115902
     0.149305     0.192816     0.248008
      898.000    0.0146258    0.0557077    0.0863307     0.133176     0.167335
     0.206975     0.256240     0.315799
      899.000    0.0178685    0.0639149    0.0970546     0.146782     0.182486
     0.223489     0.273951     0.334433
      900.000    0.0294719    0.0912231     0.132127     0.190477     0.230323
     0.275336     0.329405     0.392366
      901.000    0.0571189     0.146712     0.199413     0.269521     0.314419
     0.363453     0.420049     0.483253
      902.000     0.101709     0.220060     0.282107     0.359768     0.407181
     0.456921     0.512243     0.571771
      903.000     0.164583     0.304370     0.371333     0.451023     0.497300
     0.545252     0.597364     0.651748
      904.000     0.240220     0.395631     0.464617     0.543447     0.587569
     0.632196     0.679139     0.726254
      905.000     0.315804     0.476016     0.542667     0.616528     0.656839
     0.697186     0.739020     0.780089
      906.000     0.398034     0.554439     0.616925     0.684632     0.720810
     0.756607     0.793126     0.828252
      907.000     0.475013     0.623655     0.680457     0.740732     0.772479
     0.803377     0.834372     0.863538
      908.000     0.546043     0.682979     0.733958     0.787253     0.814805
     0.841619     0.868290     0.892991
      909.000     0.595763     0.721403     0.767498     0.815421     0.840090
     0.864030     0.887678     0.909279
      910.000     0.620879     0.740199     0.784026     0.829644     0.853156
     0.876015     0.898505     0.918729
      911.000     0.622644     0.739602     0.782939     0.828324     0.851858
     0.874785     0.897390     0.917738
      912.000     0.631797     0.743595     0.785007     0.828354     0.850825
     0.872736     0.894468     0.914388
      913.000     0.653336     0.757601     0.795793     0.835708     0.856538
     0.876572     0.896453     0.914985
      914.000     0.684427     0.780221     0.815052     0.851432     0.870413
     0.888722     0.906912     0.923904
      915.000     0.711755     0.800197     0.832335     0.865717     0.882928
     0.899736     0.916485     0.932029
      916.000     0.720778     0.806778     0.837883     0.870229     0.887025
     0.903212     0.919245     0.934143
      917.000     0.752669     0.831685     0.859741     0.888641     0.903607
     0.917803     0.931697     0.944446
      918.000     0.786926     0.857750     0.882614     0.908019     0.921051
     0.933375     0.945310     0.956088
      919.000     0.804555     0.871065     0.894210     0.917672     0.929516
     0.940809     0.951715     0.961429
      920.000     0.812188     0.878043     0.900611     0.923303     0.934714
     0.945570     0.955979     0.965111
      921.000     0.815677     0.884402     0.907669     0.930856     0.942375
     0.953096     0.963104     0.971537
      922.000     0.801580     0.878000     0.904139     0.930241     0.943159
     0.955186     0.966242     0.975111
      923.000     0.780879     0.866841     0.896658     0.926677     0.941653
     0.955620     0.968319     0.978067
      924.000     0.754780     0.850512     0.884639     0.919548     0.937172
     0.953777     0.968866     0.980128
      925.000     0.726896     0.831044     0.869280     0.909293     0.930051
     0.949763     0.967818     0.981184
      926.000     0.705733     0.814716     0.855833     0.899742     0.922930
     0.945171     0.965695     0.980850
      927.000     0.703268     0.812301     0.853831     0.898463     0.922196
     0.945062     0.966219     0.981810
      928.000     0.701485     0.810071     0.851845     0.897139     0.921535
     0.945023     0.966840     0.982956
      929.000     0.696511     0.805554     0.847956     0.894365     0.919598
     0.944116     0.967028     0.983925
      930.000     0.709435     0.816002     0.856943     0.901297     0.925052
     0.948196     0.969774     0.985572
      931.000     0.709786     0.818699     0.860086     0.904523     0.928111
     0.950808     0.971688     0.986759
      932.000     0.687273     0.803857     0.848665     0.896849     0.922376
     0.947130     0.969962     0.986389
      933.000     0.692839     0.807036     0.850960     0.898348     0.923560
     0.948018     0.970599     0.986841
