nlay = 40
Densities are arbitrarily scaled to fit easily on graph and
also to give sensible opacity/bar at the reference wavelength of 825 nm
particles/cm3 have been multiplied by an additional factor for 1000
Pressure (bar), aerosol1 (particle/gram), aerosol2 (particle/gram), aerosol1 (particle/cm3), aerosol2 (particle/cm3)
      10.1300      2.74203  1.04767e-33      2.70411  1.03318e-33
      7.99915      2.77293  1.04767e-33      2.30258  8.69964e-34
      6.31656      2.79735  1.04767e-33      1.96421  7.35644e-34
      4.98791      2.81511  1.04767e-33      1.67981  6.25159e-34
      3.93875      2.82610  1.04767e-33      1.43051  5.30308e-34
      3.11021      2.83022  1.04767e-33      1.21711  4.50542e-34
      2.45602      2.82745  1.04767e-33      1.03310  3.82802e-34
      1.93939      2.81781  1.04767e-33     0.877561  3.26281e-34
      1.53145      2.80136  1.04767e-33     0.740417  2.76906e-34
      1.20932      2.77824  1.04767e-33     0.626684  2.36322e-34
     0.954925      2.74859  1.04767e-33     0.530488  2.02204e-34
     0.754057      2.71265  1.04767e-33     0.443034  1.71107e-34
     0.595441      2.67066  1.04767e-33     0.373222  1.46411e-34
     0.470194      2.62292  1.04767e-33     0.309407  1.23586e-34
     0.371285      2.56976  1.04767e-33     0.254592  1.03795e-34
     0.293193      2.51156  2.00738e-33     0.209502  1.67446e-34
     0.231521      2.44870  5.02940e-25     0.167476  3.43981e-26
     0.182816      2.38159  7.76684e-18     0.132716  4.32813e-19
     0.144363      2.31069  7.35763e-12     0.103680  3.30134e-13
     0.113993      2.23644  4.29481e-07    0.0808271  1.55218e-08
    0.0900172      2.15932   0.00153830    0.0626918  4.46617e-05
    0.0710822      2.07978     0.339264    0.0482260   0.00786687
    0.0561303      1.99829      4.60180    0.0367566    0.0846454
    0.0443238      1.91533      3.83940    0.0276227    0.0553716
    0.0350002      1.83134     0.197003    0.0205678   0.00221256
    0.0276377      1.74676  0.000621556    0.0151161  5.37881e-06
    0.0218241      1.66204  1.20616e-07    0.0109855  7.97233e-10
    0.0172342      1.57760  1.44310e-12   0.00785472  7.18506e-15
    0.0136086      1.49378  1.05818e-18   0.00556756  3.94403e-21
    0.0107459      1.41097  4.77258e-26   0.00394747  1.33522e-28
   0.00848570      1.32952  1.04767e-33   0.00276875  2.18180e-36
   0.00670069      1.24971  1.04767e-33   0.00193495  1.62212e-36
   0.00529120      1.17184  1.04767e-33   0.00135359  1.21016e-36
   0.00417822      1.09615  1.04767e-33  0.000964088  9.21451e-37
   0.00329934      1.02285  1.04767e-33  0.000689550  7.06284e-37
   0.00260533     0.952129  1.04767e-33  0.000492415  5.41827e-37
   0.00205730     0.884139  1.04767e-33  0.000351065  4.15999e-37
   0.00162455     0.819007  1.04767e-33  0.000254855  3.26011e-37
   0.00128286     0.756833  1.04767e-33  0.000185078  2.56200e-37
   0.00101300     0.697668  1.04767e-33  0.000134073  2.01335e-37
 
Spectra calculated with opaque layer at various pressures. 
Wavelength (nm), pressures bar) :       9.00000      7.00000      5.00000
      3.00000      2.00000      1.50000      1.00000     0.700000     0.500000
     0.300000     0.100000
      600.000     0.666983     0.666981     0.666937     0.665742     0.658123
     0.643607     0.603837     0.548452     0.482513     0.373810     0.197863
      601.000     0.668382     0.668381     0.668337     0.667128     0.659409
     0.644714     0.604606     0.548951     0.482813     0.373919     0.197831
      602.000     0.669197     0.669195     0.669157     0.668031     0.660481
     0.645728     0.605322     0.549414     0.483088     0.374015     0.197794
      603.000     0.668958     0.668957     0.668928     0.667994     0.660985
     0.646396     0.605805     0.549703     0.483240     0.374044     0.197738
      604.000     0.668832     0.668831     0.668806     0.667947     0.661192
     0.646694     0.606000     0.549796     0.483268     0.374019     0.197675
      605.000     0.669016     0.669016     0.668988     0.668080     0.661184
     0.646612     0.605886     0.549686     0.483176     0.373950     0.197613
      606.000     0.668348     0.668347     0.668320     0.667419     0.660534
     0.645992     0.605376     0.549303     0.482906     0.373801     0.197537
      607.000     0.667114     0.667113     0.667085     0.666169     0.659234
     0.644748     0.604392     0.548585     0.482414     0.373544     0.197440
      608.000     0.665571     0.665570     0.665539     0.664554     0.657452
     0.643019     0.603037     0.547612     0.481759     0.373212     0.197332
      609.000     0.664061     0.664060     0.664025     0.662987     0.655769
     0.641409     0.601777     0.546703     0.481147     0.372906     0.197230
      610.000     0.662340     0.662339     0.662302     0.661229     0.653969
     0.639742     0.600502     0.545794     0.480536     0.372599     0.197127
      611.000     0.657871     0.657870     0.657834     0.656793     0.649766
     0.635988     0.597676     0.543800     0.479212     0.371948     0.196953
      612.000     0.647394     0.647394     0.647364     0.646462     0.640132
     0.627398     0.591117     0.539099     0.476050     0.370389     0.196584
      613.000     0.629755     0.629755     0.629734     0.629053     0.623855
     0.612817     0.579896     0.531024     0.470608     0.367715     0.195991
      614.000     0.610065     0.610065     0.610053     0.609574     0.605492
     0.596206     0.566905     0.521531     0.464102     0.364410     0.195235
      615.000     0.594454     0.594454     0.594446     0.594097     0.590790
     0.582790     0.556278     0.513728     0.458777     0.361791     0.194661
      616.000     0.582867     0.582867     0.582862     0.582595     0.579819
     0.572729     0.548219     0.507710     0.454564     0.359583     0.194108
      617.000     0.566849     0.566849     0.566845     0.566655     0.564451
     0.558450     0.536581     0.498970     0.448474     0.356476     0.193382
      618.000     0.546604     0.546604     0.546602     0.546475     0.544826
     0.539982     0.521143     0.487089     0.439998     0.352021     0.192332
      619.000     0.532689     0.532689     0.532688     0.532592     0.531249
     0.527096     0.510200     0.478557     0.433857     0.348774     0.191599
      620.000     0.536781     0.536781     0.536779     0.536674     0.535236
     0.530874     0.513406     0.481071     0.435690     0.349765     0.191772
      621.000     0.551823     0.551823     0.551820     0.551672     0.549845
     0.544653     0.524976     0.490027     0.442129     0.353205     0.192572
      622.000     0.574222     0.574222     0.574217     0.573979     0.571434
     0.564811     0.541542     0.502541     0.450880     0.357643     0.193478
      623.000     0.601340     0.601340     0.601330     0.600928     0.597270
     0.588649     0.560812     0.517022     0.461041     0.362904     0.194612
      624.000     0.628078     0.628078     0.628060     0.627425     0.622364
     0.611430     0.578685     0.530084     0.469966     0.367359     0.195517
      625.000     0.650175     0.650174     0.650145     0.649230     0.642726
     0.629620     0.592580     0.540029     0.476653     0.370639     0.196176
      626.000     0.666136     0.666134     0.666091     0.664881     0.657076
     0.642220     0.602055     0.546810     0.481259     0.372974     0.196683
      627.000     0.676968     0.676966     0.676910     0.675463     0.666678
     0.650548     0.608186     0.551145     0.484196     0.374485     0.197019
      628.000     0.683873     0.683871     0.683805     0.682183     0.672723
     0.655745     0.611974     0.553824     0.486035     0.375471     0.197248
      629.000     0.688667     0.688664     0.688589     0.686815     0.676822
     0.659244     0.614540     0.555669     0.487329     0.376188     0.197423
      630.000     0.691964     0.691961     0.691879     0.690006     0.679666
     0.661683     0.616342     0.556989     0.488284     0.376752     0.197567
      631.000     0.694377     0.694374     0.694289     0.692364     0.681815
     0.663550     0.617744     0.558040     0.489067     0.377234     0.197696
      632.000     0.696252     0.696249     0.696162     0.694202     0.683505
     0.665035     0.618884     0.558915     0.489737     0.377662     0.197815
      633.000     0.697904     0.697900     0.697812     0.695832     0.685026
     0.666381     0.619926     0.559725     0.490364     0.378072     0.197930
      634.000     0.699307     0.699304     0.699216     0.697235     0.686369
     0.667585     0.620866     0.560462     0.490943     0.378455     0.198036
      635.000     0.700498     0.700495     0.700410     0.698454     0.687588
     0.668697     0.621744     0.561160     0.491500     0.378833     0.198146
      636.000     0.701342     0.701339     0.701259     0.699365     0.688600
     0.669660     0.622519     0.561786     0.492010     0.379190     0.198250
      637.000     0.702140     0.702137     0.702060     0.700214     0.689530
     0.670552     0.623253     0.562391     0.492510     0.379543     0.198355
      638.000     0.703219     0.703216     0.703139     0.701275     0.690520
     0.671440     0.623967     0.562976     0.492992     0.379885     0.198457
      639.000     0.704050     0.704047     0.703969     0.702097     0.691298
     0.672153     0.624568     0.563495     0.493439     0.380215     0.198560
      640.000     0.704461     0.704458     0.704383     0.702546     0.691800
     0.672644     0.625004     0.563892     0.493802     0.380504     0.198656
      641.000     0.704415     0.704413     0.704343     0.702564     0.691921
     0.672801     0.625193     0.564121     0.494059     0.380748     0.198742
      642.000     0.703657     0.703655     0.703599     0.702034     0.691913
     0.672994     0.625428     0.564374     0.494324     0.380986     0.198823
      643.000     0.701133     0.701133     0.701100     0.700029     0.691622
     0.673625     0.626109     0.564921     0.494764     0.381286     0.198899
      644.000     0.696687     0.696687     0.696676     0.696162     0.690332
     0.674207     0.626986     0.565559     0.495211     0.381529     0.198911
      645.000     0.694364     0.694364     0.694359     0.694052     0.689512
     0.674624     0.627661     0.566042     0.495544     0.381705     0.198903
      646.000     0.696473     0.696473     0.696465     0.696067     0.691070
     0.675805     0.628573     0.566770     0.496123     0.382096     0.199018
      647.000     0.697509     0.697509     0.697502     0.697118     0.692186
     0.676840     0.629392     0.567450     0.496689     0.382501     0.199152
      648.000     0.697018     0.697018     0.697013     0.696716     0.692194
     0.677105     0.629706     0.567761     0.496990     0.382751     0.199233
      649.000     0.698834     0.698834     0.698827     0.698437     0.693143
     0.677272     0.629711     0.567886     0.497205     0.383005     0.199357
      650.000     0.701846     0.701845     0.701833     0.701239     0.694755
     0.677824     0.629958     0.568197     0.497566     0.383356     0.199514
      651.000     0.704679     0.704678     0.704658     0.703841     0.696319
     0.678596     0.630440     0.568645     0.497984     0.383696     0.199641
      652.000     0.708094     0.708093     0.708063     0.706979     0.698273
     0.679670     0.631148     0.569242     0.498493     0.384072     0.199770
      653.000     0.710156     0.710155     0.710113     0.708785     0.699121
     0.679939     0.631320     0.569462     0.498749     0.384321     0.199868
      654.000     0.710045     0.710043     0.709991     0.708467     0.698245
     0.678920     0.630598     0.569047     0.498571     0.384346     0.199911
      655.000     0.707991     0.707989     0.707928     0.706276     0.695861
     0.676743     0.629076     0.568087     0.498037     0.384195     0.199921
      656.000     0.705427     0.705424     0.705359     0.703661     0.693294
     0.674497     0.627527     0.567118     0.497512     0.384071     0.199935
      657.000     0.703830     0.703828     0.703762     0.702065     0.691804
     0.673249     0.626731     0.566676     0.497327     0.384093     0.199973
      658.000     0.703595     0.703592     0.703524     0.701797     0.691504
     0.673005     0.626640     0.566708     0.497443     0.384250     0.200034
      659.000     0.702964     0.702962     0.702890     0.701132     0.690814
     0.672403     0.626261     0.566517     0.497395     0.384318     0.200083
      660.000     0.701991     0.701988     0.701914     0.700125     0.689785
     0.671466     0.625582     0.566082     0.497161     0.384272     0.200091
      661.000     0.700836     0.700833     0.700757     0.698953     0.688641
     0.670474     0.624936     0.565731     0.497026     0.384310     0.200130
      662.000     0.697898     0.697895     0.697820     0.696041     0.685919
     0.668106     0.623261     0.564645     0.496397     0.384106     0.200122
      663.000     0.694695     0.694692     0.694617     0.692858     0.682916
     0.665456     0.621326     0.563350     0.495625     0.383850     0.200103
      664.000     0.693637     0.693634     0.693558     0.691780     0.681854
     0.664513     0.620671     0.562966     0.495455     0.383860     0.200133
      665.000     0.691299     0.691296     0.691220     0.689468     0.679708
     0.662645     0.619341     0.562104     0.494964     0.383716     0.200133
      666.000     0.686780     0.686778     0.686705     0.685031     0.675632
     0.659084     0.616734     0.560331     0.493859     0.383269     0.200069
      667.000     0.684898     0.684895     0.684824     0.683174     0.673910
     0.657573     0.615637     0.559612     0.493450     0.383155     0.200073
      668.000     0.687923     0.687920     0.687844     0.686117     0.676573
     0.659895     0.617384     0.560892     0.494361     0.383666     0.200188
      669.000     0.694278     0.694274     0.694188     0.692302     0.682159
     0.664738     0.620959     0.563420     0.496073     0.384544     0.200368
      670.000     0.702894     0.702890     0.702789     0.700666     0.689673
     0.671219     0.625718     0.566795     0.498355     0.385683     0.200609
      671.000     0.713240     0.713235     0.713113     0.710678     0.698596
     0.678855     0.631250     0.570653     0.500934     0.386979     0.200857
      672.000     0.723022     0.723016     0.722874     0.720145     0.707054
     0.686122     0.636571     0.574407     0.503462     0.388238     0.201101
      673.000     0.731546     0.731537     0.731371     0.728307     0.714165
     0.692071     0.640728     0.577228     0.505305     0.389142     0.201276
      674.000     0.737923     0.737914     0.737726     0.734397     0.719453
     0.696486     0.643829     0.579371     0.506747     0.389878     0.201420
      675.000     0.742201     0.742190     0.741989     0.738488     0.723009
     0.699451     0.645902     0.580794     0.507693     0.390361     0.201514
      676.000     0.743709     0.743698     0.743490     0.739894     0.724093
     0.700152     0.646036     0.580574     0.507277     0.389871     0.201212
      677.000     0.743673     0.743662     0.743453     0.739828     0.723895
     0.699766     0.645381     0.579794     0.506484     0.389197     0.200878
      678.000     0.742317     0.742307     0.742102     0.738531     0.722677
     0.698547     0.644154     0.578635     0.505452     0.388413     0.200523
      679.000     0.739325     0.739316     0.739125     0.735705     0.720185
     0.696284     0.642200     0.576983     0.504099     0.387477     0.200137
      680.000     0.734517     0.734509     0.734337     0.731147     0.716207
     0.692793     0.639394     0.574759     0.502383     0.386372     0.199720
